Folder: rheology_lab/2skupina/freq

Note: 2skupina/freq/fit_gelan.txt
g1 ['89.9190', '90.4486', '90.4487', '6.7966', '2.0347', '0.3315']
l1 ['0.0003', '0.0003', '0.0003', '0.0331', '0.1859', '1.4967']
g2 ['126.5743', '150.7421', '126.5781', '9.2782', '3.3486', '1.5023']
l2 ['0.0003', '0.0003', '0.0003', '0.0288', '0.2956', '10.5297']
g3 ['175.0752', '34.8063', '24.4200', '18.9556', '15.1590', '39.9782']
l3 ['0.0013', '0.0178', '0.0959', '0.5393', '3.4030', '79.3395']

Note: 2skupina/freq/fit_xantan.txt
g1 ['214.3446', '12.2176', '8.4500', '6.6716', '6.0969', '11.0091']
l1 ['0.0006', '0.0240', '0.1394', '0.8105', '5.3760', '181.6599']
g2 ['748.5282', '13.9023', '8.3772', '6.2972', '5.1457', '12.2119']
l2 ['0.0001', '0.0150', '0.0976', '0.5456', '2.9899', '43.7877']

Note: README.md
# rheology_lab
Scientific scripts for fitting rheological measurement data

File: fS2gelanP0.5T20.csv
Data Series Information,,,,,,,,
Name:,,,gelan0.5%Frekvencna_20°C 1,,,,,
,,,,,,,,
Meas. Pts.,Angular Frequency,Storage Modulus,Loss Modulus,Damping Factor,Complex Viscosity,Deflection Angle,Torque,Status
,[rad/s],[Pa],[Pa],[1],[Pa·s],[mrad],[µNm],[]
1,100,8.40E+00,9.96E+00,1.19,1.30E-01,4.00E-01,3.19E+00,DSO
2,63.1,7.98E+00,8.69E+00,1.09,1.87E-01,4.01E-01,2.89E+00,DSO
3,39.8,6.43E+00,7.42E+00,1.15,2.47E-01,4.01E-01,2.40E+00,DSO
4,25.1,5.08E+00,6.12E+00,1.21,3.17E-01,4.00E-01,1.94E+00,DSO
5,15.8,3.78E+00,4.96E+00,1.31,3.94E-01,4.00E-01,1.53E+00,DSO
6,10,2.69E+00,3.94E+00,1.46,4.77E-01,4.00E-01,1.17E+00,DSO
7,6.31,1.85E+00,3.05E+00,1.65,5.66E-01,4.00E-01,8.73E-01,DSO
8,3.98,1.23E+00,2.31E+00,1.88,6.59E-01,4.00E-01,6.41E-01,DSO
9,2.51,7.98E-01,1.71E+00,2.14,7.52E-01,4.00E-01,4.62E-01,DSO
10,1.58,5.20E-01,1.23E+00,2.37,8.43E-01,4.00E-01,3.27E-01,DSO
11,1,3.36E-01,8.72E-01,2.59,9.34E-01,4.00E-01,2.29E-01,DSO
12,0.631,2.22E-01,6.06E-01,2.74,1.02E+00,4.00E-01,1.58E-01,DSO
13,0.398,1.51E-01,4.19E-01,2.78,1.12E+00,4.00E-01,1.09E-01,DSO
14,0.251,1.11E-01,2.85E-01,2.58,1.22E+00,4.00E-01,7.48E-02,DSO

File: fS2gelanP0.7T20.csv
Data Series Information,,,,,,,,
Name:,,,gelan 0.7% 20°C 1,,,,,
,,,,,,,,
Meas. Pts.,Angular Frequency,Storage Modulus,Loss Modulus,Damping Factor,Complex Viscosity,Deflection Angle,Torque,Status
,[rad/s],[Pa],[Pa],[1],[Pa·s],[mrad],[µNm],[]
1,100,1.36E+01,1.61E+01,1.18,2.10E-01,4.00E-01,5.15E+00,DSO
2,63.1,1.18E+01,1.29E+01,1.09,2.77E-01,4.01E-01,4.28E+00,DSO
3,39.8,9.75E+00,1.05E+01,1.08,3.60E-01,4.01E-01,3.51E+00,DSO
4,25.1,8.05E+00,8.33E+00,1.04,4.61E-01,4.00E-01,2.83E+00,DSO
5,15.8,6.54E+00,6.60E+00,1.01,5.86E-01,4.00E-01,2.27E+00,DSO
6,10,5.30E+00,5.22E+00,0.985,7.44E-01,4.00E-01,1.82E+00,DSO
7,6.31,4.31E+00,4.12E+00,0.957,9.45E-01,4.00E-01,1.46E+00,DSO
8,3.98,3.50E+00,3.26E+00,0.933,1.20E+00,4.00E-01,1.17E+00,DSO
9,2.51,2.87E+00,2.59E+00,0.901,1.54E+00,4.00E-01,9.45E-01,DSO
10,1.58,2.37E+00,2.05E+00,0.866,1.98E+00,4.00E-01,7.68E-01,DSO
11,1,1.98E+00,1.64E+00,0.831,2.57E+00,4.00E-01,6.29E-01,DSO
12,0.631,1.66E+00,1.32E+00,0.795,3.37E+00,4.00E-01,5.19E-01,DSO
13,0.398,1.42E+00,1.07E+00,0.752,4.46E+00,4.00E-01,4.34E-01,DSO
14,0.251,1.23E+00,8.74E-01,0.712,6.00E+00,4.00E-01,3.69E-01,DSO
15,0.158,1.08E+00,7.24E-01,0.667,8.23E+00,4.00E-01,3.19E-01,DSO
16,0.1,9.82E-01,6.09E-01,0.62,1.16E+01,4.00E-01,2.83E-01,DSO

File: fS2gelanP1.0T20.csv
Data Series Information,,,,,,,,
Name:,,,gelan 1% 20°C 1,,,,,
,,,,,,,,
Meas. Pts.,Angular Frequency,Storage Modulus,Loss Modulus,Damping Factor,Complex Viscosity,Deflection Angle,Torque,Status
,[rad/s],[Pa],[Pa],[1],[Pa·s],[mrad],[µNm],[]
1,100,1.28E+02,4.07E+01,0.319,1.34E+00,4.00E-01,3.27E+01,DSO
2,63.1,1.18E+02,3.65E+01,0.309,1.96E+00,4.00E-01,3.03E+01,DSO
3,39.8,1.09E+02,3.28E+01,0.3,2.86E+00,4.00E-01,2.79E+01,DSO
4,25.1,1.01E+02,2.95E+01,0.292,4.19E+00,4.00E-01,2.57E+01,DSO
5,15.8,9.33E+01,2.67E+01,0.287,6.12E+00,4.00E-01,2.37E+01,DSO
6,10,8.62E+01,2.43E+01,0.282,8.96E+00,4.00E-01,2.19E+01,DSO
7,6.31,7.98E+01,2.22E+01,0.279,1.31E+01,4.00E-01,2.03E+01,DSO
8,3.98,7.39E+01,2.04E+01,0.276,1.92E+01,4.00E-01,1.87E+01,DSO
9,2.51,6.84E+01,1.87E+01,0.274,2.82E+01,4.00E-01,1.73E+01,DSO
10,1.58,6.33E+01,1.72E+01,0.272,4.14E+01,4.00E-01,1.61E+01,DSO
11,1,5.87E+01,1.59E+01,0.271,6.08E+01,4.00E-01,1.49E+01,DSO
12,0.631,5.44E+01,1.47E+01,0.269,8.93E+01,4.00E-01,1.38E+01,DSO
13,0.398,5.05E+01,1.36E+01,0.268,1.31E+02,4.00E-01,1.28E+01,DSO
14,0.251,4.69E+01,1.26E+01,0.268,1.93E+02,4.00E-01,1.19E+01,DSO
15,0.158,4.36E+01,1.16E+01,0.267,2.85E+02,4.00E-01,1.10E+01,DSO
16,0.1,4.06E+01,1.09E+01,0.268,4.20E+02,4.00E-01,1.03E+01,DSO

File: fS2xantanP1T20.csv
Data Series Information,,,,,,,,
Name:,,,Xantan 1% 20°C 1,,,,,
,,,,,,,,
Meas. Pts.,Angular Frequency,Storage Modulus,Loss Modulus,Damping Factor,Complex Viscosity,Deflection Angle,Torque,Status
,[rad/s],[Pa],[Pa],[1],[Pa·s],[mrad],[µNm],[]
1,100,4.33E+01,1.72E+01,0.397,4.66E-01,4.00E-01,1.14E+01,DSO
2,63.1,4.09E+01,1.45E+01,0.355,6.87E-01,4.01E-01,1.06E+01,DSO
3,39.8,3.78E+01,1.27E+01,0.335,1.00E+00,4.00E-01,9.73E+00,DSO
4,25.1,3.51E+01,1.11E+01,0.315,1.46E+00,4.00E-01,8.99E+00,DSO
5,15.8,3.24E+01,9.83E+00,0.303,2.14E+00,4.00E-01,8.28E+00,DSO
6,10,2.99E+01,8.84E+00,0.296,3.12E+00,4.00E-01,7.63E+00,DSO
7,6.31,2.76E+01,8.03E+00,0.291,4.56E+00,4.00E-01,7.03E+00,DSO
8,3.98,2.54E+01,7.35E+00,0.289,6.65E+00,4.00E-01,6.48E+00,DSO
9,2.51,2.34E+01,6.75E+00,0.288,9.71E+00,4.00E-01,5.96E+00,DSO
10,1.58,2.15E+01,6.24E+00,0.29,1.42E+01,4.00E-01,5.49E+00,DSO
11,1,1.98E+01,5.78E+00,0.292,2.06E+01,4.00E-01,5.04E+00,DSO
12,0.631,1.81E+01,5.37E+00,0.296,3.00E+01,4.00E-01,4.63E+00,DSO
13,0.398,1.66E+01,5.00E+00,0.302,4.34E+01,4.00E-01,4.23E+00,DSO
14,0.251,1.50E+01,4.67E+00,0.31,6.26E+01,4.00E-01,3.85E+00,DSO
15,0.158,1.36E+01,4.35E+00,0.319,9.02E+01,4.00E-01,3.50E+00,DSO
16,0.1,1.23E+01,4.06E+00,0.33,1.30E+02,4.00E-01,3.17E+00,DSO

File: fS2xantanP1T30.csv
Data Series Information,,,,,,,,
Name:,,,Xantan 1% 30°C 1,,,,,
,,,,,,,,
Meas. Pts.,Angular Frequency,Storage Modulus,Loss Modulus,Damping Factor,Complex Viscosity,Deflection Angle,Torque,Status
,[rad/s],[Pa],[Pa],[1],[Pa·s],[mrad],[µNm],[]
1,100,4.17E+01,1.49E+01,0.358,4.43E-01,4.00E-01,1.08E+01,DSO
2,63.1,3.83E+01,1.30E+01,0.338,6.41E-01,4.01E-01,9.90E+00,DSO
3,39.8,3.49E+01,1.15E+01,0.328,9.24E-01,3.99E-01,8.96E+00,DSO
4,25.1,3.25E+01,1.01E+01,0.312,1.36E+00,4.00E-01,8.33E+00,DSO
5,15.8,3.01E+01,9.14E+00,0.304,1.98E+00,4.00E-01,7.69E+00,DSO
6,10,2.78E+01,8.32E+00,0.299,2.90E+00,4.00E-01,7.10E+00,DSO
7,6.31,2.56E+01,7.65E+00,0.298,4.24E+00,4.00E-01,6.55E+00,DSO
8,3.98,2.36E+01,7.07E+00,0.299,6.20E+00,4.00E-01,6.04E+00,DSO
9,2.51,2.18E+01,6.58E+00,0.302,9.06E+00,4.00E-01,5.57E+00,DSO
10,1.58,2.01E+01,6.14E+00,0.306,1.32E+01,4.00E-01,5.13E+00,DSO
11,1,1.84E+01,5.75E+00,0.312,1.93E+01,4.00E-01,4.72E+00,DSO
12,0.631,1.69E+01,5.40E+00,0.319,2.82E+01,4.00E-01,4.35E+00,DSO
13,0.398,1.55E+01,5.09E+00,0.328,4.10E+01,4.00E-01,4.00E+00,DSO
14,0.251,1.43E+01,4.81E+00,0.337,5.99E+01,4.00E-01,3.68E+00,DSO
15,0.158,1.31E+01,4.56E+00,0.347,8.76E+01,4.00E-01,3.40E+00,DSO
16,0.1,1.21E+01,4.33E+00,0.358,1.28E+02,4.00E-01,3.14E+00,DSO