Folder: rheology_lab/1skupina/freq

Note: 1skupina/freq/fit_gelan.txt
g1 ['91.0463', '91.0918', '91.0958', '7.1275', '1.9545']
l1 ['0.0003', '0.0003', '0.0003', '0.0353', '0.2828']
g2 ['164.5618', '164.6863', '164.6749', '10.2750', '3.0407']
l2 ['0.0003', '0.0003', '0.0003', '0.0425', '0.6393']
g3 ['3581.1397', '30.1717', '16.2445', '10.3495', '15.5099']
l3 ['0.0001', '0.0321', '0.1798', '1.0587', '16.8813']

Note: 1skupina/freq/fit_xantan.txt
g1 ['1534.7152', '10.5214', '6.9977', '5.8233', '13.6786']
l1 ['0.0001', '0.0395', '0.2283', '1.2822', '19.3235']
g2 ['187.4603', '198.1935', '11.9143', '9.1928', '16.1216']
l2 ['0.0004', '0.0004', '0.0556', '0.5850', '14.3217']

Note: 1skupina/freq/S1gelan.txt
g1 ['89.5513', '89.5444', '89.5108', '6.7955', '2.0339', '0.3314']
l1 ['0.0003', '0.0003', '0.0003', '0.0331', '0.1860', '1.4972']
g2 ['161.5349', '161.6271', '161.6268', '9.3953', '3.1867', '1.0792']
l2 ['0.0003', '0.0003', '0.0003', '0.0357', '0.2394', '3.0971']
g3 ['3581.1397', '30.1717', '16.2445', '10.3495', '15.5099']
l3 ['0.0001', '0.0321', '0.1798', '1.0587', '16.8813']

Note: README.md
# rheology_lab
Scientific scripts for fitting rheological measurement data

File: S1GelanP0.7T20.csv
Data Series Information,,,,,,,,
Name:,,,gelan0.7%Frekvencna_20°C 1,,,,,
,,,,,,,,
Meas. Pts.,Angular Frequency,Storage Modulus,Loss Modulus,Damping Factor,Complex Viscosity,Deflection Angle,Torque,Status
,[rad/s],[Pa],[Pa],[1],[Pa·s],[mrad],[µNm],[]
1,100,1.25E+01,1.64E+01,1.32,2.06E-01,4.00E-01,5.05E+00,DSO
2,63.1,1.20E+01,1.49E+01,1.25,3.04E-01,4.00E-01,4.68E+00,DSO
3,39.8,1.04E+01,1.16E+01,1.11,3.92E-01,4.01E-01,3.82E+00,DSO
4,25.1,8.49E+00,9.43E+00,1.11,5.05E-01,4.00E-01,3.10E+00,DSO
5,15.8,6.64E+00,7.58E+00,1.14,6.36E-01,4.00E-01,2.46E+00,DSO
6,10,5.09E+00,6.03E+00,1.18,7.89E-01,4.00E-01,1.93E+00,DSO
7,6.31,3.84E+00,4.74E+00,1.23,9.67E-01,4.00E-01,1.49E+00,DSO
8,3.98,2.89E+00,3.68E+00,1.27,1.18E+00,4.00E-01,1.14E+00,DSO
9,2.51,2.18E+00,2.84E+00,1.3,1.42E+00,4.00E-01,8.75E-01,DSO
10,1.58,1.64E+00,2.17E+00,1.32,1.72E+00,4.00E-01,6.66E-01,DSO
11,1,1.25E+00,1.66E+00,1.33,2.07E+00,4.00E-01,5.07E-01,DSO
12,0.631,9.47E-01,1.26E+00,1.33,2.50E+00,4.00E-01,3.86E-01,DSO
13,0.398,7.28E-01,9.52E-01,1.31,3.01E+00,4.00E-01,2.93E-01,DSO
14,0.251,5.67E-01,7.23E-01,1.28,3.66E+00,4.00E-01,2.25E-01,DSO

File: S1GelanP1.0T20.csv
Data Series Information,,,,,,,,
Name:,,,gelan1%Frekvencna_20°C 1,,,,,
,,,,,,,,
Meas. Pts.,Angular Frequency,Storage Modulus,Loss Modulus,Damping Factor,Complex Viscosity,Deflection Angle,Torque,Status
,[rad/s],[Pa],[Pa],[1],[Pa·s],[mrad],[µNm],[]
1,100,6.89E+01,4.35E+01,0.631,8.14E-01,4.00E-01,1.99E+01,DSO
2,63.1,6.59E+01,3.78E+01,0.574,1.20E+00,4.01E-01,1.86E+01,DSO
3,39.8,5.98E+01,3.26E+01,0.545,1.71E+00,4.00E-01,1.67E+01,DSO
4,25.1,5.33E+01,2.82E+01,0.528,2.40E+00,4.00E-01,1.47E+01,DSO
5,15.8,4.69E+01,2.43E+01,0.518,3.34E+00,4.00E-01,1.29E+01,DSO
6,10,4.12E+01,2.10E+01,0.511,4.62E+00,4.00E-01,1.13E+01,DSO
7,6.31,3.61E+01,1.82E+01,0.504,6.40E+00,4.00E-01,9.88E+00,DSO
8,3.98,3.16E+01,1.57E+01,0.498,8.88E+00,4.00E-01,8.64E+00,DSO
9,2.51,2.78E+01,1.36E+01,0.49,1.23E+01,4.00E-01,7.57E+00,DSO
10,1.58,2.45E+01,1.18E+01,0.483,1.71E+01,4.00E-01,6.65E+00,DSO
11,1,2.16E+01,1.03E+01,0.474,2.39E+01,4.00E-01,5.86E+00,DSO
12,0.631,1.92E+01,8.92E+00,0.465,3.35E+01,4.00E-01,5.17E+00,DSO
13,0.398,1.71E+01,7.78E+00,0.456,4.71E+01,4.00E-01,4.59E+00,DSO
14,0.251,1.53E+01,6.83E+00,0.447,6.67E+01,4.00E-01,4.10E+00,DSO

File: S1XantanP1T30.csv
Data Series Information,,,,,,,,
Name:,,,X1%Frekvencna_30°C 1,,,,,
,,,,,,,,
Meas. Pts.,Angular Frequency,Storage Modulus,Loss Modulus,Damping Factor,Complex Viscosity,Deflection Angle,Torque,Status
,[rad/s],[Pa],[Pa],[1],[Pa·s],[mrad],[µNm],[]
1,100,3.67E+01,1.57E+01,0.427,3.99E-01,4.00E-01,9.75E+00,DSO
2,63.1,3.66E+01,1.34E+01,0.367,6.18E-01,4.01E-01,9.55E+00,DSO
3,39.8,3.46E+01,1.18E+01,0.34,9.19E-01,3.99E-01,8.93E+00,DSO
4,25.1,3.28E+01,1.04E+01,0.317,1.37E+00,4.00E-01,8.41E+00,DSO
5,15.8,3.06E+01,9.36E+00,0.306,2.02E+00,4.00E-01,7.82E+00,DSO
6,10,2.84E+01,8.54E+00,0.301,2.96E+00,4.00E-01,7.25E+00,DSO
7,6.31,2.63E+01,7.86E+00,0.299,4.34E+00,4.00E-01,6.70E+00,DSO
8,3.98,2.43E+01,7.29E+00,0.3,6.36E+00,4.00E-01,6.20E+00,DSO
9,2.51,2.24E+01,6.80E+00,0.304,9.32E+00,4.00E-01,5.73E+00,DSO
10,1.58,2.07E+01,6.38E+00,0.309,1.36E+01,4.00E-01,5.29E+00,DSO
11,1,1.90E+01,6.00E+00,0.315,2.00E+01,4.00E-01,4.88E+00,DSO
12,0.631,1.75E+01,5.67E+00,0.324,2.92E+01,4.00E-01,4.50E+00,DSO
13,0.398,1.61E+01,5.37E+00,0.333,4.27E+01,4.00E-01,4.16E+00,DSO
14,0.251,1.49E+01,5.10E+00,0.343,6.26E+01,4.00E-01,3.84E+00,DSO